# 181 angles,  1 tensor ranks for 0=projectile
@subtitle   "p+Ni78 Coulomb + Nuclear"                                                                                              
@legend ON
@legend x1 0.2
@legend y1 0.8
@g0 type LOGY
@xaxis label "Scattering angle (degrees)"
@yaxis label "Cross section (mb/sr)"
@             s0 legend        "Partition=  1 Excit=  1 near/far= 1"
#             s0 legend        "Lab energy =   50.0000"
@s0 linestyle   1
#  Theta       sigma       iT11        T20         T21         T22         Kyy for projectile
  0.1000E-01   1.000    
   1.000      0.9956    
   2.000      0.9106    
   3.000      0.7792    
   4.000      0.6609    
   5.000      0.5984    
   6.000      0.6128    
   7.000      0.7036    
   8.000      0.8514    
   9.000       1.023    
   10.00       1.178    
   11.00       1.277    
   12.00       1.290    
   13.00       1.203    
   14.00       1.020    
   15.00      0.7672    
   16.00      0.4862    
   17.00      0.2304    
   18.00      0.5513E-01
   19.00      0.8620E-02
   20.00      0.1233    
   21.00      0.4092    
   22.00      0.8512    
   23.00       1.410    
   24.00       2.027    
   25.00       2.633    
   26.00       3.156    
   27.00       3.537    
   28.00       3.732    
   29.00       3.724    
   30.00       3.525    
   31.00       3.172    
   32.00       2.724    
   33.00       2.253    
   34.00       1.835    
   35.00       1.539    
   36.00       1.418    
   37.00       1.499    
   38.00       1.786    
   39.00       2.254    
   40.00       2.856    
   41.00       3.529    
   42.00       4.200    
   43.00       4.800    
   44.00       5.269    
   45.00       5.563    
   46.00       5.661    
   47.00       5.566    
   48.00       5.301    
   49.00       4.909    
   50.00       4.444    
   51.00       3.965    
   52.00       3.531    
   53.00       3.190    
   54.00       2.979    
   55.00       2.914    
   56.00       2.996    
   57.00       3.208    
   58.00       3.521    
   59.00       3.894    
   60.00       4.283    
   61.00       4.643    
   62.00       4.938    
   63.00       5.137    
   64.00       5.225    
   65.00       5.197    
   66.00       5.061    
   67.00       4.834    
   68.00       4.542    
   69.00       4.216    
   70.00       3.887    
   71.00       3.583    
   72.00       3.327    
   73.00       3.137    
   74.00       3.022    
   75.00       2.983    
   76.00       3.012    
   77.00       3.099    
   78.00       3.226    
   79.00       3.374    
   80.00       3.525    
   81.00       3.660    
   82.00       3.764    
   83.00       3.827    
   84.00       3.842    
   85.00       3.806    
   86.00       3.722    
   87.00       3.596    
   88.00       3.435    
   89.00       3.251    
   90.00       3.055    
   91.00       2.860    
   92.00       2.676    
   93.00       2.515    
   94.00       2.383    
   95.00       2.288    
   96.00       2.231    
   97.00       2.214    
   98.00       2.233    
   99.00       2.283    
   100.0       2.355    
   101.0       2.440    
   102.0       2.528    
   103.0       2.606    
   104.0       2.664    
   105.0       2.692    
   106.0       2.686    
   107.0       2.641    
   108.0       2.557    
   109.0       2.439    
   110.0       2.294    
   111.0       2.133    
   112.0       1.968    
   113.0       1.812    
   114.0       1.677    
   115.0       1.574    
   116.0       1.510    
   117.0       1.487    
   118.0       1.504    
   119.0       1.554    
   120.0       1.629    
   121.0       1.716    
   122.0       1.801    
   123.0       1.870    
   124.0       1.913    
   125.0       1.922    
   126.0       1.892    
   127.0       1.826    
   128.0       1.731    
   129.0       1.616    
   130.0       1.495    
   131.0       1.383    
   132.0       1.291    
   133.0       1.232    
   134.0       1.211    
   135.0       1.229    
   136.0       1.282    
   137.0       1.359    
   138.0       1.447    
   139.0       1.528    
   140.0       1.588    
   141.0       1.612    
   142.0       1.590    
   143.0       1.520    
   144.0       1.406    
   145.0       1.259    
   146.0       1.095    
   147.0      0.9374    
   148.0      0.8082    
   149.0      0.7292    
   150.0      0.7176    
   151.0      0.7830    
   152.0      0.9258    
   153.0       1.136    
   154.0       1.395    
   155.0       1.673    
   156.0       1.938    
   157.0       2.155    
   158.0       2.292    
   159.0       2.325    
   160.0       2.240    
   161.0       2.040    
   162.0       1.742    
   163.0       1.376    
   164.0      0.9901    
   165.0      0.6384    
   166.0      0.3806    
   167.0      0.2747    
   168.0      0.3701    
   169.0      0.7021    
   170.0       1.287    
   171.0       2.120    
   172.0       3.169    
   173.0       4.386    
   174.0       5.697    
   175.0       7.021    
   176.0       8.267    
   177.0       9.347    
   178.0       10.18    
   179.0       10.71    
   180.0       10.89    
 &
